File: Data/TGA.csv
"","Date","ADX","STOCHFK","STOCHFD","STOCHSD","BBandsUp","BbandsDn","BbandsMiddle","PercentB","RSI","SMA","EMA","MACD","Signal"
"17236978","2001-08-03",NA,NA,NA,NA,NA,NA,NA,NA,NA,NA,NA,NA,NA
"17236977","2001-08-06",NA,NA,NA,NA,NA,NA,NA,NA,NA,NA,NA,NA,NA
"17236976","2001-08-07",NA,NA,NA,NA,NA,NA,NA,NA,NA,NA,NA,NA,NA
"17236975","2001-08-08",NA,NA,NA,NA,NA,NA,NA,NA,NA,NA,NA,NA,NA
"17236974","2001-08-09",NA,NA,NA,NA,NA,NA,NA,NA,NA,NA,NA,NA,NA
"17236973","2001-08-10",NA,NA,NA,NA,NA,NA,NA,NA,NA,NA,NA,NA,NA
"17236972","2001-08-13",NA,NA,NA,NA,NA,NA,NA,NA,NA,NA,NA,NA,NA
"17236971","2001-08-14",NA,NA,NA,NA,NA,NA,NA,NA,NA,NA,NA,NA,NA
"17236970","2001-08-15",NA,NA,NA,NA,NA,NA,NA,NA,NA,NA,NA,NA,NA
"17236969","2001-08-16",NA,NA,NA,NA,NA,NA,NA,NA,NA,NA,NA,NA,NA
"17236968","2001-08-17",NA,NA,NA,NA,NA,NA,NA,NA,NA,NA,NA,NA,NA
"17236967","2001-08-20",NA,NA,NA,NA,NA,NA,NA,NA,NA,NA,NA,NA,NA
"17236966","2001-08-21",NA,NA,NA,NA,NA,NA,NA,NA,NA,NA,NA,NA,NA
"17236965","2001-08-22",NA,0.2,NA,NA,NA,NA,NA,NA,NA,NA,0.274286,NA,NA
"17236964","2001-08-23",NA,0.4,NA,NA,NA,NA,NA,NA,56.25,NA,0.276381,NA,NA
"17236963","2001-08-24",NA,0.8,0.466667,NA,NA,NA,NA,NA,65.5303,NA,0.28353,NA,NA
"17236949","2001-09-20",21.3561,0,0.0512821,0.034188,0.334911,0.209755,0.272333,0.188389,41.2396,0.266,0.249704,-6.16911,NA
"17236935","2001-10-10",20.9183,0,1.85037e-17,0.015873,0.249731,0.175269,0.2125,0.242595,39.8385,0.2184,0.202295,-8.5262,-8.6188
"17236921","2001-10-30",16.79,0.75,0.5,0.361111,0.20854,0.176126,0.192333,0.736523,50.955,0.1904,0.187815,-4.91474,-6.34487
"17236907","2001-11-19",26.9944,0.214286,0.280112,0.35901,0.296808,0.171526,0.234167,0.546562,51.8072,0.2164,0.233488,4.01229,4.02743
"17236893","2001-12-10",27.4521,0.2,0.155556,0.140741,0.304178,0.207489,0.255833,0.43967,52.3971,0.2456,0.247643,3.0633,3.67455
"17236879","2001-12-31",37.7389,0.5,0.466667,0.481818,0.353692,0.230975,0.292333,1.13289,69.4958,0.2736,0.291817,6.55601,5.50539
"17236865","2002-01-22",36.8091,0.0588235,0.157174,0.259507,0.508205,0.265462,0.386833,0.513045,51.6526,0.3532,0.371428,6.05244,8.67454
"17236851","2002-02-11",33.4254,0.133333,0.0777778,0.037037,0.428117,0.288883,0.3585,-0.0159165,37.0607,0.3552,0.319828,-4.98293,-0.899412
"17236837","2002-03-04",16.9528,0.0833333,0.0833333,0.0685185,0.362254,0.240746,0.3015,0.323056,43.4732,0.304,0.28399,-6.16804,-5.45608
"17236823","2002-03-22",20.9903,0.833333,0.877778,0.825926,0.347074,0.235259,0.291167,0.996354,59.7985,0.2852,0.303209,2.22582,-1.04062
"17236809","2002-04-12",18.193,0.166667,0.0555556,0.0185185,0.392102,0.284898,0.3385,0.265247,46.1843,0.32,0.317462,-0.326894,2.1411
"17236795","2002-05-02",13.9492,0,0.0833333,0.25,0.364073,0.28526,0.324667,0.398494,44.1432,0.3248,0.317183,-0.725551,0.443606
"17236781","2002-05-22",22.7942,0.666667,0.722222,0.740741,0.390573,0.27776,0.334167,0.817636,59.8414,0.3276,0.342423,3.97908,1.96724
"17236767","2002-06-12",21.6755,0.111111,0.0740741,0.0740741,0.398521,0.315479,0.357,-0.0659776,41.7906,0.3416,0.334137,-0.903083,1.11536
"17236753","2002-07-02",16.7964,0,-5.73615e-16,0.0277778,0.38638,0.293287,0.339833,0.17953,41.4341,0.3352,0.325085,-2.34361,-0.570507
"17236739","2002-07-23",11.9237,0.222222,0.31339,0.423552,0.350272,0.276395,0.313333,0.139039,43.3843,0.3148,0.305194,-2.44882,-2.36249
"17236725","2002-08-12",14.0242,0.454545,0.393939,0.494949,0.347493,0.24984,0.298667,0.547789,48.8924,0.2924,0.291552,-1.43722,-2.25071
"17236711","2002-08-30",12.6965,0.4,0.2,0.116667,0.338697,0.262303,0.3005,0.449821,50.7508,0.2864,0.281477,-2.21295,-1.75084
"17236697","2002-09-20",17.8543,0.375,0.333333,0.277778,0.325674,0.252659,0.289167,0.648372,51.7169,0.2836,0.282379,-0.789561,-1.03705
"17236683","2002-10-10",24.203,0.285714,0.539683,0.69224,0.384461,0.265539,0.325,0.626134,53.1629,0.3136,0.330064,4.2975,4.00259
"17236669","2002-10-30",12.1075,0,0.178571,0.244048,0.367932,0.307401,0.337667,-0.0121344,43.2031,0.3304,0.323462,0.285122,1.61222
"17236655","2002-11-19",11.3255,0,-4.81097e-16,0.190476,0.35145,0.284216,0.317833,0.18518,43.4443,0.3164,0.305014,-2.25715,-1.2286
"17236641","2002-12-10",20.9332,0.521739,0.573913,0.471551,0.382966,0.250368,0.316667,1.25416,62.9289,0.3044,0.31502,2.18531,-0.941696
"17236627","2002-12-31",30.3866,0.0714286,0.0904762,0.194468,0.466744,0.293256,0.38,0.519214,53.6417,0.3496,0.371501,4.38629,5.24323
"17236613","2003-01-22",23.5853,0.416667,0.315171,0.435643,0.431328,0.369006,0.400167,1.13916,63.2176,0.3868,0.393698,3.60239,3.38382
"17236599","2003-02-11",16.2922,0.25,0.111111,0.0555556,0.444585,0.367082,0.405833,0.424734,53.8107,0.3932,0.390352,0.537424,1.13583
"17236585","2003-03-04",20.9121,0.3,0.359259,0.391358,0.449717,0.363616,0.406667,0.809715,53.889,0.3944,0.40535,2.01457,1.43925
"17236571","2003-03-24",27.2495,0,0.333333,0.416667,0.473967,0.4207,0.447333,0.174593,47.2841,0.4256,0.437133,2.55513,3.1045
"17236557","2003-04-11",13.0438,0.5,0.5,0.511111,0.488366,0.424634,0.4565,0.502615,52.7231,0.4476,0.450011,1.74355,2.12799
"17236543","2003-05-02",13.4606,0.333333,0.444444,0.537037,0.487628,0.444039,0.465833,0.442646,48.4927,0.458,0.459812,1.23905,1.59544
"17236529","2003-05-22",26.5544,0.25,0.488095,0.599206,0.512469,0.454198,0.483333,0.5,49.4807,0.472,0.480208,1.91214,1.9031
"17236515","2003-06-12",17.1485,0.2,0.2,0.166667,0.536657,0.477343,0.507,0.438183,50.2713,0.4924,0.494628,1.05331,1.77958
"17236501","2003-07-02",16.235,0.142857,0.142857,0.142857,0.517389,0.472277,0.494833,0.31897,47.4545,0.4912,0.482462,-0.462313,-0.22192
"17236487","2003-07-23",25.4722,0.285714,0.285714,0.253968,0.515265,0.481402,0.498333,0.746094,55.867,0.4872,0.493562,0.676777,0.421452
"17236473","2003-08-12",51.7127,0.564103,0.683761,0.69663,0.810225,0.352108,0.581167,0.868537,73.9512,0.5508,0.631655,11.2684,6.62273
"17236459","2003-09-02",52.7983,0.725,0.632749,0.601859,0.953917,0.578417,0.766167,1.14048,84.7606,0.6956,0.776992,11.358,9.21718
"17236445","2003-09-22",49.4278,0,0.0392157,0.209209,1.08671,0.784624,0.935667,0.370897,51.7859,0.8688,0.915932,6.64194,9.16892
"17236431","2003-10-10",46.0916,0.576923,0.768331,0.806143,1.07525,0.884417,0.979833,0.955022,70.1056,0.9644,0.988251,5.10181,5.21107
"17236417","2003-10-30",43.3237,0.0909091,0.202717,0.27051,1.24176,0.990903,1.11633,0.620917,61.2522,1.0728,1.10556,4.17123,5.25092
"17236403","2003-11-19",45.0505,0.684932,0.59644,0.495926,1.83326,0.92241,1.37783,0.875658,70.7571,1.2944,1.43416,9.83777,8.91377
"17236389","2003-12-10",40.2798,0.621212,0.531297,0.532893,2.01255,1.36312,1.68783,1.10899,76.6924,1.6188,1.72213,9.0312,8.45963
"17236375","2003-12-31",41.9368,0.611111,0.722222,0.756656,2.86376,1.57691,2.22033,0.688833,62.3029,2.0632,2.31121,11.2668,11.8699
"17236361","2004-01-22",36.9899,0.594203,0.575845,0.565282,3.01318,2.30682,2.66,0.849212,67.8114,2.572,2.69413,8.25417,8.94396
"17236347","2004-02-11",32.5557,0.401639,0.385246,0.242259,3.2186,1.92973,2.57417,0.35711,48.5913,2.5212,2.32109,-3.0306,-1.22546
"17236333","2004-03-03",24.6752,0.689189,0.62588,0.568238,2.74075,1.99858,2.36967,1.02593,61.0629,2.3068,2.43204,1.85057,-0.279871
"17236319","2004-03-23",22.7543,0.130435,0.213714,0.281713,2.84028,2.19472,2.5175,0.20439,44.8578,2.4268,2.39993,-0.774632,0.219816
"17236305","2004-04-13",18.7578,0.529412,0.706987,0.751776,2.92699,2.21001,2.5685,0.762441,55.5886,2.5,2.63092,3.62203,2.40703
"17236291","2004-05-03",15.9137,0,-1.18424e-15,0.0102881,2.93794,2.28672,2.61233,0.0562192,37.8782,2.5604,2.45795,-1.94831,-0.278544
"17236277","2004-05-21",17.8388,0.466667,0.483333,0.42963,2.55507,2.10426,2.32967,0.471163,46.7801,2.3352,2.26403,-2.86502,-3.26686
"17236263","2004-06-14",15.3979,0.326531,0.190476,0.108272,2.49543,2.13724,2.31633,0.426482,47.946,2.2584,2.26939,-1.40997,-1.15825
"17236249","2004-07-02",14.509,0.872727,0.746601,0.689246,2.84739,2.11495,2.48117,0.912548,65.5191,2.4348,2.5546,3.91225,2.63953
"17236235","2004-07-23",13.0247,0,0.0107527,0.0430108,2.83727,2.4814,2.65933,0.0991019,45.423,2.6032,2.57614,0.682534,1.80128
"17236221","2004-08-12",23.3523,0.322581,0.341556,0.416626,2.64925,2.28908,2.46917,0.252432,43.6051,2.4716,2.40796,-1.70573,-1.53038
"17236207","2004-09-01",18.7931,0,0.133333,0.204444,2.47168,2.27598,2.37383,-0.0987076,33.0068,2.3376,2.32413,-1.72828,-1.61087
"17236193","2004-09-22",28.4121,0.855263,0.786754,0.686922,2.69936,2.04597,2.37267,1.14892,72.3381,2.3396,2.42461,2.42102,-0.208906
"17236179","2004-10-12",46.8291,0.774648,0.685446,0.718522,4.17889,2.07211,3.1255,0.869205,72.6323,2.8928,3.35709,11.7909,9.63211
"17236165","2004-11-01",23.9271,0.3,0.29,0.372222,4.31023,3.46344,3.88683,0.425011,55.4718,3.6668,3.80356,6.60201,8.47136
"17236151","2004-11-19",13.2165,0.431818,0.318182,0.199495,4.17416,3.49951,3.83683,0.425641,53.7678,3.7968,3.71519,1.17077,2.25857
"17236137","2004-12-10",25.4102,0.403846,0.288344,0.315573,5.62691,3.21276,4.41983,0.656093,57.5451,4.2108,4.49624,5.41625,6.22394
"17236123","2004-12-31",21.0076,0.62963,0.556514,0.589263,5.29123,4.46543,4.87833,0.736134,61.6995,4.83,4.86471,3.94081,4.5175
"17236109","2005-01-21",26.4278,0.73913,0.699793,0.653057,5.80654,4.2618,5.03417,0.995769,72.3125,4.9456,5.14233,4.86334,3.04297
"17236095","2005-02-10",40.3412,0.4921875,0.441046,0.551822,6.98537,5.14763,6.0665,0.703238,64.6192,5.6864,6.14315,6.79595,7.00034
"17236081","2005-03-03",40.9274,0.272989,0.278203,0.258602,8.70418,5.75215,7.22817,0.588696,56.3536,6.8352,7.21264,6.60509,7.63236
"17236067","2005-03-23",24.1898,0.384279,0.484409,0.457438,8.37402,5.43432,6.90417,0.306953,46.8778,6.8264,6.42133,-1.33128,-0.616532
"17236053","2005-04-13",20.4004,0,0.13738,0.261612,6.90577,5.53123,6.2185,0.047604,39.8809,6.1188,6.03298,-2.73532,-1.91702
"17236039","2005-05-03",21.4445,0.206667,0.206667,0.294388,6.46875,4.74158,5.60517,0.265416,41.1497,5.6096,5.38529,-4.26489,-4.09924
"17236025","2005-05-23",24.2692,0,0.0227273,0.0454545,5.9561,4.18624,5.07117,0.0868794,33.9469,5.0204,4.72012,-6.72897,-5.49606
"17236011","2005-06-13",23.1472,0.932127,0.876574,0.80542,6.4262,3.86314,5.14467,0.989779,70.366,5.054,5.49589,4.6037,1.16434
"17235997","2005-07-01",25.1513,0.304,0.216,0.304608,7.26933,5.64034,6.45483,0.570698,57.6859,6.1236,6.42168,5.16519,6.16342
"17235983","2005-07-22",18.0863,0,0.024055,0.0297824,7.18967,6.08866,6.63917,0.0890147,43.9175,6.5868,6.39952,0.486762,2.26738
"17235969","2005-08-11",11.7603,0.472727,0.415152,0.376768,6.69828,5.95072,6.3245,0.627749,51.9569,6.348,6.29282,-0.0965094,-0.0419115
"17235955","2005-08-31",7.39266,0.367816,0.37931,0.35249,6.57151,5.95349,6.2625,0.420445,49.1587,6.2252,6.16692,-0.545015,-0.661447
"17235941","2005-09-21",10.1856,0.495327,0.39894,0.224191,6.50041,5.86726,6.18383,1.1415,60.5088,6.0888,6.10458,-0.256362,-0.783314
"17235927","2005-10-11",15.7913,0.0451128,0.0177924,0.00776735,6.62735,5.60365,6.1155,0.0973736,33.5442,6.0248,5.89571,-2.14045,-0.950228
"17235913","2005-10-31",37.3393,0.417062,0.252765,0.231771,6.23457,4.17177,5.20317,0.332024,43.5577,5.3136,4.83623,-7.47758,-6.79109
"17235899","2005-11-18",28.2648,0.298701,0.373697,0.460026,5.59132,4.47068,5.031,0.591317,49.2655,4.9108,5.02819,-1.4308,-2.31883
"17235885","2005-12-09",15.9811,0.394737,0.460526,0.408244,5.56363,4.87937,5.2215,0.770611,54.6179,5.1444,5.22225,0.924991,0.198806
"17235871","2005-12-30",15.6382,0,0.0528455,0.0606925,5.77124,5.03176,5.4015,0.0832674,40.1824,5.2784,5.23897,-0.519741,0.521957
"17235857","2006-01-23",21.7727,0.54902,0.437575,0.307924,5.36712,4.96021,5.16367,0.900574,54.6545,5.1712,5.12214,-0.571874,-0.897935
"17235843","2006-02-10",20.2797,0.377551,0.485829,0.572735,6.28471,4.92829,5.6065,0.645113,56.5607,5.4272,5.67991,3.10802,2.71409
"17235829","2006-03-03",14.0446,0.685714,0.51746,0.480361,6.20289,5.29944,5.75117,0.734841,58.0773,5.652,5.65591,1.34572,1.26408
"17235815","2006-03-23",14.0005,0.129032,0.0430108,0.0526511,6.02959,5.27475,5.65217,0.241005,46.2444,5.5716,5.48122,-0.882816,-0.263705
"17235801","2006-04-12",19.7007,0.626263,0.666273,0.640394,5.94649,5.07551,5.511,0.931317,61.1129,5.4592,5.55353,0.984728,-0.245116
"17235787","2006-05-03",14.1808,0,0.107527,0.128351,6.23944,5.51556,5.8775,0.420568,50.3377,5.7128,5.82683,1.38075,1.72095
"17235773","2006-05-23",27.6029,0.19685,0.0656168,0.023067,6.32104,4.78896,5.555,0.170382,35.2127,5.5804,5.24336,-4.02199,-2.31577
"17235759","2006-06-13",29.7098,0,0.170635,0.174769,5.41524,4.59376,5.0045,-0.179067,31.0486,5.0484,4.8669,-4.31542,-3.43931
"17235745","2006-07-03",29.3279,0.682243,0.609611,0.581988,5.08063,4.2467,4.66367,0.871332,53.8133,4.6836,4.62843,-2.13837,-3.47473
"17235731","2006-07-24",22.9753,0,0.00416667,0.00562865,5.15821,4.40613,4.78217,0.169139,40.405,4.6652,4.65161,-1.46582,-0.869599
"17235717","2006-08-11",13.6949,0.415094,0.520183,0.615819,5.00838,4.45028,4.72933,0.590784,50.3214,4.7076,4.7443,0.395479,-0.00597184
"17235703","2006-08-31",13.4038,0.482759,0.392012,0.344784,4.92672,4.69494,4.81083,0.668982,53.967,4.756,4.76098,0.265323,0.234893
"17235689","2006-09-21",15.4951,0.0153846,0.164103,0.160684,5.09704,4.49363,4.79533,0.225999,41.5484,4.7448,4.68188,-0.899564,-0.450857
"17235675","2006-10-11",14.4152,0.294118,0.24226,0.218008,4.8615,4.3155,4.5885,0.368439,42.4887,4.5652,4.46892,-2.05808,-1.66519
"17235661","2006-10-31",9.98804,0,0.362352,0.478343,4.93053,4.32414,4.62733,0.454924,45.1724,4.5864,4.6301,0.183113,0.16364
"17235647","2006-11-20",17.72,0.657534,0.516248,0.530975,4.98324,4.44009,4.71167,1.18428,69.9238,4.6688,4.72834,1.3319,0.525403
"17235633","2006-12-11",30.3797,0.65625,0.412473,0.387145,5.35083,4.72617,5.0385,1.14809,73.3191,4.906,5.04206,2.41127,2.17611
"17235619","2007-01-03",20.7433,0,0.0540541,0.0556439,5.40752,4.79482,5.10117,0.122708,41.8113,5.0508,4.97407,-0.230358,0.646057
"17235605","2007-01-24",14.7662,0.703704,0.616218,0.558703,5.06892,4.59741,4.83317,0.860899,56.2063,4.8256,4.79716,-0.570818,-1.14127
"17235591","2007-02-13",17.9497,0.172414,0.0637606,0.0589894,5.08407,4.50126,4.79267,0.0321554,40.116,4.7176,4.64407,-1.80565,-1.06336
"17235577","2007-03-06",23.8492,0.157143,0.052381,0.0219955,4.81635,4.10565,4.461,0.170275,37.0676,4.474,4.31515,-3.34607,-2.70076
"17235563","2007-03-26",22.8914,0.375,0.291667,0.22338,4.58714,3.71619,4.15167,0.379442,44.2273,4.1596,4.00992,-3.86363,-3.77485
"17235549","2007-04-16",20.4193,0.366667,0.215972,0.123181,4.04048,3.79519,3.91783,0.590371,46.3397,3.9188,3.89045,-2.13582,-2.61515
"17235535","2007-05-04",17.4439,0.22973,0.27027,0.31313,4.37887,3.7268,4.05283,0.516103,49.5696,3.98,4.05776,0.674691,0.359768
"17235521","2007-05-24",9.59181,0.333333,0.15024,0.0934037,4.31613,3.70787,4.012,0.39807,49.5228,3.9884,3.89596,-1.20713,-0.97149
"17235507","2007-06-14",8.36652,0.269231,0.362069,0.483495,4.07927,3.80373,3.9415,0.458263,46.9814,3.914,3.94484,0.0269907,-0.0531541
"17235493","2007-07-05",25.3844,0.662791,0.713888,0.699482,4.57929,3.77471,4.177,0.971885,71.3407,4.1004,4.24217,2.86043,1.97768
"17235479","2007-07-25",47.213,0.2625,0.47322,0.649276,5.54316,4.15484,4.849,0.553542,56.8881,4.674,4.91414,4.97018,5.49141
"17235465","2007-08-14",32.1508,0.0509554,0.0424628,0.0233285,5.66015,3.30085,4.4805,0.145164,27.6365,4.5124,4.01587,-6.41307,-3.50948
"17235451","2007-09-04",18.6964,0.666667,0.581197,0.549858,4.144,3.52333,3.83367,0.800216,49.4903,3.8572,3.89051,-2.25716,-3.48616
"17235437","2007-09-24",26.0052,0.864198,0.817572,0.813228,4.85085,3.76882,4.30983,0.875989,69.022,4.1728,4.41,3.63382,2.34913
"17235423","2007-10-12",21.6884,0.581081,0.567568,0.581081,5.25528,4.44572,4.8505,0.709374,61.9132,4.6996,4.8568,3.94939,4.16875
"17235409","2007-11-01",26.3303,0.717647,0.648781,0.646894,5.85307,4.80393,5.3285,0.86363,68.0393,5.1908,5.38754,4.5905,4.53943
"17235395","2007-11-21",14.5691,0.166667,0.137255,0.126362,5.81729,5.08737,5.45233,0.359802,50.6874,5.366,5.26529,0.404213,1.27301
"17235381","2007-12-12",11.4763,0.62,0.558182,0.472929,5.43061,5.06006,5.24533,0.845436,55.7395,5.2124,5.20633,0.0864087,-0.208765
"17235367","2008-01-03",11.2291,0.391753,0.319588,0.309278,5.47654,4.92679,5.20167,0.539411,51.5716,5.1272,5.10044,-0.614879,-0.679082
"17235353","2008-01-24",15.459,0.122807,0.0409357,0.0136452,5.4928,4.5222,5.0075,-0.00569734,32.8965,4.9336,4.76619,-3.38732,-1.84178
"17235339","2008-02-13",13.6928,0.666667,0.672519,0.612026,5.16378,4.43522,4.7995,0.953636,57.3018,4.7912,4.82187,-0.114046,-1.18788
"17235325","2008-03-05",23.7575,0.230769,0.271221,0.42574,5.70869,4.77431,5.2415,0.637524,56.8597,5.0884,5.25251,2.35598,2.3586
"17235311","2008-03-26",27.2521,0.372263,0.201946,0.0981346,5.83547,4.18853,5.012,0.340918,46.4062,4.9992,4.68594,-3.6647,-2.43998
"17235297","2008-04-15",13.0544,0,0.136275,0.288459,4.99352,4.33515,4.66433,0.422537,42.2254,4.6484,4.64311,-1.68968,-1.80049
"17235283","2008-05-05",12.8374,0.373134,0.199005,0.102907,5.0418,4.4512,4.7465,0.556722,49.5743,4.6972,4.67265,-0.875572,-0.618979
"17235269","2008-05-23",24.5097,0.411765,0.570196,0.67277,5.25979,4.47655,4.86817,0.830039,60.956,4.822,4.93931,1.91932,1.11766
"17235255","2008-06-13",16.0892,0.75,0.605159,0.438635,5.24789,4.91244,5.08017,0.757866,59.0578,4.9788,5.00826,1.09076,1.06291
"17235241","2008-07-03",15.0011,0,-4.73695e-15,0.0410256,5.38819,4.89215,5.14017,-0.0244902,40.9669,5.0584,5.03746,-0.00290115,0.813596
"17235227","2008-07-24",37.6452,0,0.00784314,0.0132898,5.31885,3.94748,4.63317,0.0455874,27.588,4.6852,4.37987,-4.99123,-3.66599
"17235213","2008-08-13",32.0935,0.268657,0.144279,0.0755943,4.43963,3.66437,4.052,0.325436,37.7959,4.0888,3.91029,-5.43203,-5.40136
"17235199","2008-09-03",21.365,0,0.0333333,0.127015,4.09033,3.64367,3.867,-0.0231483,32.376,3.8432,3.79039,-3.23413,-3.14863
"17235185","2008-09-23",38.9685,0.257143,0.280909,0.18673,4.08232,2.74801,3.41517,0.306268,38.1631,3.4596,3.17842,-7.28993,-6.91926
"17235171","2008-10-13",48.9423,0.106742,0.0355805,0.0282,3.67284,1.65949,2.66617,0.0416424,27.7669,2.6828,2.24663,-17.5256,-12.6448
"17235157","2008-10-31",35.5795,0.611111,0.460212,0.33712,2.25165,1.48802,1.86983,0.779584,47.4414,1.9596,1.82821,-12.0678,-14.7631
"17235143","2008-11-20",20.4095,0,0.0665446,0.150457,2.70209,1.51291,2.1075,0.216189,38.5936,1.9776,2.00451,-3.87732,-2.84772
"17235129","2008-12-11",13.9837,0.676056,0.705203,0.620266,2.22333,1.71933,1.97133,0.907407,54.6999,1.9812,1.96196,-0.756822,-2.41823
"17235115","2009-01-02",17.4366,0.534091,0.416667,0.339458,2.67123,1.86477,2.268,0.829007,62.0981,2.1392,2.25832,3.98335,3.24756
"17235101","2009-01-23",13.4679,0.233333,0.155556,0.118519,2.62892,2.14441,2.38667,0.561917,52.7639,2.3372,2.30899,1.20243,2.10832
"17235087","2009-02-12",20.4433,0.0597015,0.299948,0.415223,3.20266,2.16601,2.68433,0.473311,50.9799,2.5736,2.68413,3.81449,4.87658
"17235073","2009-03-05",15.0292,0.327273,0.145455,0.147908,2.86848,2.30352,2.586,0.347776,48.4304,2.5964,2.45742,-1.85742,-0.810208
"17235059","2009-03-25",9.66824,0.52,0.596552,0.630093,2.85923,2.38777,2.6235,0.732969,54.5121,2.5264,2.62169,1.80345,1.09398
"17235045","2009-04-15",13.9114,0.144928,0.236715,0.225443,2.96034,2.304,2.63217,0.146269,42.5341,2.5772,2.47982,-2.22163,-0.937446
"17235031","2009-05-05",14.2636,0.72093,0.651809,0.603025,2.67643,2.26757,2.472,1.03318,60.4715,2.464,2.4989,0.549288,-0.89201
"17235017","2009-05-26",12.2424,0.027027,0.0367868,0.117201,2.80226,2.45808,2.63017,0.344559,47.5136,2.5412,2.56099,0.338857,0.792503
"17235003","2009-06-15",20.7707,0.277778,0.487654,0.591326,2.89947,2.48986,2.69467,0.569986,50.4453,2.6388,2.70166,2.0717,1.7926
"17234989","2009-07-06",13.7048,0,0.0707196,0.11587,2.8772,2.52814,2.70267,-0.0615106,37.8496,2.6732,2.62673,-0.484463,0.278553
"17234975","2009-07-24",20.5349,0.951807,0.90822,0.883304,3.05058,2.20275,2.62667,0.952137,70.3034,2.5924,2.69604,2.94122,0.307792
"17234961","2009-08-13",23.6499,0.488889,0.4,0.387954,3.26406,2.77561,3.01983,0.759663,62.9138,2.8596,3.00262,3.94817,4.04698
"17234947","2009-09-02",15.6913,0.103448,0.045977,0.122605,3.21545,2.98755,3.1015,0.332527,51.4567,3.0644,3.05124,1.42074,2.24048
"17234933","2009-09-23",23.9541,0.736111,0.728372,0.705859,3.73802,2.90031,3.31917,0.867072,69.8452,3.2344,3.39076,4.37235,3.54344
"17234919","2009-10-13",27.9208,0.789474,0.796048,0.799645,4.06254,3.22046,3.6415,1.12365,77.8014,3.5312,3.6983,5.28816,3.97293
"17234905","2009-11-02",26.6751,0,-5.18104e-15,0.0349563,4.68134,3.59466,4.138,0.133748,42.0284,3.9404,3.97172,1.80425,4.34535
"17234891","2009-11-20",17.4377,0,0.045045,0.102102,4.17863,3.26937,3.724,0.216988,38.8921,3.798,3.56553,-3.05967,-2.07928
"17234877","2009-12-11",13.8636,0,-5.19954e-15,0.0113379,3.73559,3.33074,3.53317,0.00639892,35.3186,3.4896,3.45053,-2.54045,-2.07237
"17234863","2010-01-04",11.9396,0.323529,0.294118,0.215686,3.54311,3.25023,3.39667,0.454475,44.2473,3.4,3.35352,-1.78085,-1.86681
"17234849","2010-01-25",14.2076,0.145833,0.195959,0.276859,3.83537,3.22329,3.52933,0.468414,48.1213,3.478,3.51844,0.418738,0.692497
"17234835","2010-02-12",19.6868,0.555556,0.460943,0.403143,3.85148,3.40552,3.6285,0.869607,60.0055,3.596,3.62457,1.37115,0.985354
"17234821","2010-03-05",25.8179,0.206897,0.318966,0.402618,4.05553,3.61147,3.8335,0.597211,58.4948,3.7632,3.8236,1.82829,2.03948
"17234807","2010-03-25",51.3374,0.679739,0.700663,0.648952,5.0092,3.58446,4.29683,1.08011,77.1533,4.1484,4.41198,5.74502,4.62651
"17234793","2010-04-15",59.7298,0.901408,0.867395,0.849834,7.14188,4.13612,5.639,0.836354,79.2997,5.3112,5.94599,10.814,10.3255
"17234779","2010-05-05",47.3805,0.626087,0.707246,0.740717,7.70962,6.04272,6.87617,0.716269,67.0554,6.6236,6.94373,7.63486,8.71667
"17234765","2010-05-25",26.5884,0,0.144208,0.234043,7.73058,6.37809,7.05433,-0.070057,40.3005,6.9556,6.75384,0.61069,3.01712
"17234751","2010-06-15",20.9448,0.846667,0.867196,0.835802,8.12363,6.2607,7.19217,0.867431,65.077,7.1104,7.37901,3.87448,2.91435
"17234737","2010-07-06",15.7865,0.0743243,0.0585586,0.045738,8.15444,6.96323,7.55883,0.0700466,42.2125,7.4172,7.24734,-0.384039,1.18433
"17234723","2010-07-26",14.3862,0.612903,0.512545,0.388292,7.71261,6.87506,7.29383,0.654617,53.4913,7.2604,7.2149,-0.280176,-0.29012
"17234709","2010-08-13",10.3195,0.313725,0.253142,0.41587,7.81392,7.00875,7.41133,0.556303,51.9705,7.3464,7.4315,0.813099,0.813315
"17234695","2010-09-02",10.619,0.0933333,0.0488889,0.0513661,7.77815,7.15552,7.46683,0.173162,43.6958,7.4168,7.31158,-0.630035,-0.0713651
"17234681","2010-09-23",23.5995,0.844444,0.874074,0.765444,8.76612,6.67088,7.7185,0.99867,72.8971,7.5936,7.97716,3.84446,1.95766
"17234667","2010-10-13",33.6203,0.617834,0.735796,0.696943,10.4944,7.90993,9.20217,0.843527,70.6675,8.7872,9.34271,5.81175,5.77081
"17234653","2010-11-02",29.3787,0.717647,0.607637,0.540732,11.1305,9.42283,10.2767,0.999703,67.7459,9.9784,10.2943,4.74466,4.98703
"17234639","2010-11-22",44.227,0.84,0.802383,0.738615,17.1378,9.32425,13.231,0.757546,69.7457,12.4372,13.8454,9.8215,10.1436
"17234625","2010-12-13",45.5782,0.339882,0.407411,0.437185,19.3122,13.6138,16.463,0.639862,60.6776,15.8804,16.6746,8.04224,9.39305
"17234611","2011-01-03",21.8968,0.615607,0.539311,0.498561,18.8181,13.4299,16.124,0.467707,54.3158,16.022,15.5998,1.40421,1.78332
"17234597","2011-01-24",18.033,0.0786026,0.119697,0.0710642,16.4962,14.1041,15.3002,-0.000332158,39.3182,15.1032,14.7613,-1.86929,-0.761031
"17234583","2011-02-11",22.629,0.794749,0.780942,0.772071,15.8636,12.2667,14.0652,0.839593,58.0802,14.1036,14.0931,-0.544425,-2.47764
"17234569","2011-03-04",12.5317,0.488038,0.367402,0.304893,15.6083,13.3611,14.4847,0.552806,53.0354,13.9424,14.1463,-0.257107,-0.481741
"17234555","2011-03-24",12.9304,0.431734,0.416974,0.393604,15.0917,12.7903,13.941,0.496669,50.6147,13.8028,13.6217,-1.15532,-1.47766
"17234541","2011-04-13",17.9378,0.105528,0.279778,0.483276,15.9797,13.1803,14.58,0.370214,44.0479,14.134,14.6056,1.36271,1.74073
"17234527","2011-05-04",18.6692,0,0.186094,0.355678,15.5381,12.9946,14.2663,0.0624113,36.8342,14.3132,13.881,-1.23044,-0.597892
"17234513","2011-05-24",18.8364,0.410811,0.347221,0.269968,14.5869,12.0961,13.3415,0.435161,46.7443,13.2692,13.0047,-2.17653,-2.39871
"17234499","2011-06-14",16.5393,0.0246914,0.00823045,0.030748,14.8709,12.0147,13.4428,0.221253,38.2725,13.232,13.1403,-1.422,-0.465537
"17234485","2011-07-05",29.6741,0.617747,0.457338,0.342047,13.7266,10.0887,11.9077,0.613342,50.4362,12.2172,11.4539,-4.42892,-4.93809
"17234471","2011-07-25",14.2535,0.0955882,0.224498,0.280987,12.8595,10.6675,11.7635,0.527296,47.6161,11.5192,11.7682,-0.789768,-1.32977
"17234457","2011-08-12",28.3108,0.36211,0.2501,0.182571,13.0563,7.88835,10.4723,0.288634,38.9482,10.5888,9.51124,-8.43085,-6.82099
"17234443","2011-09-01",21.04,0.680272,0.637188,0.523217,9.87902,8.23198,9.0555,0.82857,50.3719,9.1096,9.1476,-3.28615,-5.19837
"17234429","2011-09-22",14.195,0,0.262745,0.441176,10.1941,8.59689,9.3955,-0.0439674,39.0631,9.1076,9.23541,-0.987944,-1.08574
"17234415","2011-10-12",13.3855,0.778689,0.5621,0.431552,10.2781,7.17952,8.72883,0.621936,53.8439,8.6628,8.3262,-2.98147,-3.9802
"17234401","2011-11-01",17.526,0.370213,0.611348,0.713395,10.8205,7.61818,9.21933,0.614709,52.9289,8.8064,9.47941,3.80826,2.40317
"17234387","2011-11-21",15.7411,0,-4.996e-15,0.00963391,10.9182,8.40681,9.6625,-0.169949,31.535,9.4272,9.04806,-1.80986,0.579741
"17234373","2011-12-12",22.2617,0.0793651,0.137272,0.19624,9.42832,6.88268,8.1555,0.228097,35.3716,8.3388,7.87297,-4.75711,-4.34812
"17234359","2012-01-03",17.1543,0.858896,0.715173,0.661604,8.50481,6.77219,7.6385,0.839468,57.3542,7.598,7.6932,-1.03392,-2.79743
"17234345","2012-01-24",28.9122,0.737968,0.73769,0.709793,9.81761,7.47772,8.64767,0.902725,69.771,8.3032,8.82538,4.20345,3.08831
"17234331","2012-02-13",36.9067,0.709459,0.684685,0.688557,10.6514,8.74161,9.6965,0.82473,68.2493,9.4336,9.81505,4.83977,4.6905
"17234317","2012-03-05",44.7869,0.691358,0.797387,0.810954,11.6597,9.67294,10.6663,0.842427,69.0768,10.3884,10.8425,5.08315,4.80637
"17234303","2012-03-23",35.3346,0.527397,0.422374,0.461948,12.1353,10.9513,11.5433,0.666108,60.0596,11.2524,11.4601,3.08584,3.84078
"17234289","2012-04-13",35.1524,0.657143,0.634246,0.602857,13.2483,11.2247,12.2365,1.08322,72.4197,12.0128,12.3551,3.70203,3.27957
"17234275","2012-05-03",32.921,0.392265,0.59116,0.684042,14.2464,12.1382,13.1923,0.732903,57.2606,12.8396,13.2728,3.68365,3.58784
"17234261","2012-05-23",30.9648,0.00882353,0.0292844,0.0200716,14.8203,9.05473,11.9375,0.199797,33.1028,11.9816,10.9129,-5.81988,-3.982
"17234247","2012-06-13",26.0289,0.321101,0.363914,0.33792,10.7452,9.28447,10.0148,0.387156,40.8562,10.1304,9.85968,-4.84326,-5.59503
"17234233","2012-07-03",28.4538,0.440529,0.368556,0.239491,10.5551,7.56261,9.05883,0.513757,44.7775,9.0148,8.62299,-5.89363,-6.6294
"17234219","2012-07-24",13.5463,0.145631,0.130511,0.232706,9.36495,8.03472,8.69983,0.507643,44.6987,8.5372,8.68403,-1.7468,-2.50597
"17234205","2012-08-13",14.1458,0.452941,0.37966,0.417065,9.95276,8.46757,9.21017,0.659239,54.1729,8.9856,9.19064,1.22399,0.739699
"17234191","2012-08-31",16.6648,0.481481,0.528807,0.588684,11.0361,8.97922,10.0077,0.611333,56.4891,9.7696,10.088,3.16556,3.30318
"17234177","2012-09-21",28.4568,0.474227,0.619488,0.700201,12.3391,9.87153,11.1053,0.600502,56.4646,10.8516,11.1963,4.06592,4.473
"17234163","2012-10-11",18.6532,0.655172,0.594148,0.549245,11.9675,10.3498,11.1587,0.513187,55.9087,11.1324,11.0016,1.157,1.33006
"17234149","2012-11-02",17.7812,0.47,0.228667,0.100222,11.6835,10.6375,11.1605,1.10498,59.8178,10.9916,10.9808,0.110433,0.372765
"17234135","2012-11-23",15.6646,0.336283,0.309735,0.250246,12.2068,10.2772,11.242,0.450592,50.429,11.1284,11.0323,-0.377021,0.0291675
"17234121","2012-12-13",23.7485,0,0.162162,0.144745,11.2732,9.38576,10.3295,0.0993758,34.1477,10.4392,9.986,-3.54509,-2.92061
"17234107","2013-01-04",27.5398,0,0.0859649,0.0818713,9.96699,9.23135,9.59917,0.138638,36.1792,9.6436,9.46935,-2.85848,-3.04856
"17234093","2013-01-25",21.5842,0.0175439,0.0662768,0.150097,9.74062,8.17071,8.95567,0.114202,32.4263,8.978,8.64522,-4.07298,-3.88941
"17234079","2013-02-14",15.6382,0.197917,0.347222,0.415509,8.94073,8.2966,8.61867,0.326122,39.8737,8.5412,8.59397,-1.32035,-1.88266
"17234065","2013-03-07",21.7347,0.732143,0.649889,0.51201,9.09623,7.3731,8.23467,0.799069,58.7413,8.2256,8.11608,-1.37381,-2.59222
"17234051","2013-03-27",22.8292,0.185567,0.0932282,0.228188,9.41378,7.88856,8.65117,0.438042,49.0771,8.3964,8.61617,0.760499,1.09397
"17234037","2013-04-17",25.2092,0,-4.08932e-15,0.075698,9.12631,6.94002,8.03317,0.0426805,24.3928,8.1448,7.6334,-4.19427,-2.98043
"17234023","2013-05-07",18.7415,0.638554,0.722803,0.68628,8.37259,6.94341,7.658,0.76962,54.0761,7.5556,7.75252,-0.0040608,-1.31288
"17234009","2013-05-28",12.4054,0.00775194,0.0206718,0.0309636,8.39966,7.17534,7.7875,0.139937,38.6817,7.6848,7.51294,-1.68765,-1.04886
"17233995","2013-06-17",14.9049,0.0735294,0.0588235,0.0555556,7.6507,6.92363,7.28717,0.265496,38.9603,7.2952,7.15772,-2.08475,-2.13365
"17233981","2013-07-08",36.0539,0.19375,0.264184,0.273755,7.5712,5.3018,6.4365,0.282689,34.4192,6.4916,6.12504,-5.57734,-5.60108
"17233967","2013-07-26",24.1533,0.516484,0.589744,0.597926,6.42106,5.77027,6.09567,0.767881,49.4436,5.9548,6.12573,-1.16511,-2.55172
"17233953","2013-08-15",23.7843,0.102564,0.119658,0.191008,7.03332,5.98601,6.50967,0.366643,46.0605,6.3296,6.44618,0.831856,1.07607
"17233939","2013-09-05",23.0596,0.747126,0.784623,0.651866,7.18126,6.28274,6.732,0.891015,63.4171,6.6476,6.747,2.07264,1.56217
"17233925","2013-09-25",35.8697,0.654762,0.677438,0.661353,8.09591,6.59709,7.3465,0.827034,69.3655,7.1696,7.4657,3.9473,3.6789
"17233911","2013-10-15",50.5123,0.797546,0.693252,0.673723,9.30627,7.23439,8.27033,0.861829,72.6323,8.0144,8.44415,5.5292,5.15733
"17233897","2013-11-04",37.7831,0.1,0.115801,0.211291,9.36475,8.70858,9.03667,0.48984,57.729,8.8156,8.89297,2.71771,3.8251
"17233883","2013-11-22",21.4817,0.203252,0.132791,0.110208,9.31592,8.45574,8.88583,0.353713,50.4963,8.8456,8.67739,-0.0958348,0.51596
"17233869","2013-12-13",16.552,0.111111,0.0752315,0.0829475,9.07384,8.37682,8.72533,0.205413,44.5112,8.6384,8.61605,-0.459207,-0.0282348
"17233855","2014-01-06",18.617,0.047619,0.142857,0.15107,8.92204,8.01863,8.47033,0.270869,40.7989,8.4588,8.29692,-1.40343,-1.279
"17233841","2014-01-27",18.7206,0,0.308642,0.399177,8.54574,7.99226,8.269,0.0742027,38.1883,8.202,8.1863,-0.878737,-0.87755
"17233827","2014-02-14",42.3054,0.62069,0.45573,0.374773,8.5801,6.3869,7.4835,0.408733,44.6101,7.5344,7.19761,-3.89923,-4.26545
"17233813","2014-03-07",28.932,0.68932,0.504054,0.479294,7.74171,6.87729,7.3095,0.97489,55.1738,7.1496,7.3502,-0.122161,-1.27108
"17233799","2014-03-27",16.877,0.0808081,0.111111,0.158687,7.83893,7.15507,7.497,0.431272,48.8176,7.3676,7.34674,-0.260039,-0.203651
"17233785","2014-04-16",12.4984,0.491803,0.387978,0.256831,7.69548,7.20252,7.449,0.630505,52.3047,7.38,7.37227,-0.118075,-0.0957482
"17233771","2014-05-07",11.9548,0,0.442509,0.501152,8.12598,7.20836,7.66717,0.201584,41.9408,7.5484,7.62569,0.820193,1.01837
"17233757","2014-05-28",18.7131,0.329787,0.237642,0.161304,8.09846,5.8612,6.97983,0.374921,43.3721,7.0384,6.69555,-3.40868,-3.50141
"17233743","2014-06-17",12.6662,0.710145,0.748792,0.71879,7.40552,6.40848,6.907,0.743723,54.9307,6.7748,7.00398,0.635631,-0.227888
"17233729","2014-07-08",13.5182,0.166667,0.277778,0.437037,7.54535,6.98065,7.263,0.471076,49.9832,7.15,7.21397,0.995614,1.1231
"17233715","2014-07-28",24.3708,0.0722892,0.132792,0.138391,7.59997,6.2467,6.92333,0.275851,39.2728,6.934,6.71181,-1.94614,-1.67315
"17233701","2014-08-15",23.8072,0.301205,0.192771,0.203544,6.82508,5.97526,6.40017,0.409589,44.2139,6.3732,6.25018,-2.67503,-2.99008
"17233687","2014-09-05",18.4693,0.347826,0.507246,0.634058,6.87384,6.08816,6.481,0.536911,49.0308,6.3384,6.51876,0.662725,0.123034
"17233673","2014-09-25",21.0287,0,-3.26591e-15,0.021021,6.90801,5.80866,6.35833,0.0285107,33.0642,6.3348,6.13739,-2.12905,-1.23813
"17233659","2014-10-15",33.7158,0,0.020202,0.020202,6.54817,4.78849,5.66833,0.0122217,20.4174,5.7216,5.31365,-6.4184,-4.84229
"17233645","2014-11-04",40.3924,0,-3.28441e-15,0.013468,5.45097,4.06203,4.7565,-0.0854543,18.2922,4.856,4.50231,-8.38219,-7.28447
"17233631","2014-11-24",40.6301,0.0285714,0.0952381,0.0714286,4.52941,3.58225,4.05583,0.279165,33.4805,4.13,3.9109,-7.35955,-7.94095
"17233617","2014-12-15",43.2558,0.0380952,0.0126984,0.00846561,4.09818,2.69115,3.39467,0.160276,25.6029,3.4324,3.13752,-10.3706,-9.81887
"17233603","2015-01-06",27.7964,0.42,0.553074,0.618895,4.07166,2.68701,3.37933,0.65696,50.1386,3.2568,3.48535,0.814018,-1.53379
"17233589","2015-01-27",23.6586,0.17,0.137372,0.130758,4.0728,2.43186,3.25233,0.30763,40.2896,3.216,2.97547,-5.13339,-4.61396
"17233575","2015-02-17",13.4445,0.650602,0.654618,0.556894,3.39361,2.69673,3.04517,0.779579,53.9516,2.9428,3.08031,0.345416,-1.29035
"17233561","2015-03-09",11.8882,0.348837,0.339493,0.310585,3.3178,2.7892,3.0535,0.39879,48.987,3.014,2.96097,-0.979242,-1.25541
"17233547","2015-03-27",22.8386,0.552,0.619772,0.670439,3.54984,2.57982,3.06483,0.927999,66.1786,2.9784,3.13509,3.19575,0.870973
"17233533","2015-04-17",46.6511,0.75,0.713333,0.739091,4.40871,3.10195,3.75533,0.901503,80.7728,3.5044,3.86,7.87423,6.84931
"17233519","2015-05-07",50.9679,0,0.322404,0.499047,4.69112,3.98621,4.33867,0.331657,49.4253,4.172,4.29755,5.16982,6.3473
"17233505","2015-05-28",23.3023,0,0.0679627,0.127333,4.64428,3.77205,4.20817,0.181087,43.1707,4.1796,4.05268,-0.227393,0.80801
"17233491","2015-06-17",13.92,0,-3.00685e-15,0.0683761,4.22227,3.86473,4.0435,0.24781,43.309,3.9988,3.97471,-0.824953,-0.413859
"17233477","2015-07-08",18.7047,0.238095,0.0793651,0.126228,4.17945,3.64889,3.91417,0.215708,44.0209,3.8896,3.80656,-1.97138,-1.35868
"17233463","2015-07-28",37.8516,0.0833333,0.0277778,0.0115039,4.18224,2.6791,3.43067,0.118132,28.17,3.48,3.14023,-8.31115,-6.268
"17233449","2015-08-17",28.2889,0,0.215833,0.347632,3.0854,2.81293,2.94917,0.246146,35.237,2.974,2.91388,-4.85319,-5.81679
"17233435","2015-09-04",22.3999,0.27,0.303333,0.416667,3.23603,2.53464,2.88533,0.316556,42.7107,2.8224,2.83014,-2.00535,-2.89024
"17233421","2015-09-25",12.4021,0,0.130081,0.191687,3.16721,2.42746,2.79733,0.219725,39.0881,2.7132,2.66712,-2.52539,-2.50237
"17233407","2015-10-15",13.5948,0.311475,0.31694,0.418944,3.01264,2.49703,2.75483,0.484161,47.8035,2.6924,2.74193,0.262061,-0.0271698
"17233393","2015-11-04",10.4674,0.470588,0.5,0.412735,2.94748,2.48319,2.71533,0.445436,49.8452,2.688,2.63944,-0.881036,-1.13382
"17233379","2015-11-24",30.1003,0.047619,0.0357143,0.0224868,3.00398,1.81202,2.408,0.191263,26.8268,2.4032,2.17951,-8.07392,-6.10931
"17233365","2015-12-15",31.8406,0.09375,0.03125,0.0104167,2.2672,1.58647,1.92683,0.0933256,26.1731,1.9672,1.80981,-10.0308,-8.70181
"17233351","2016-01-06",25.5704,0.271186,0.372881,0.393597,1.86658,1.55208,1.70933,0.427927,40.4667,1.7352,1.71986,-4.26905,-5.90851
"17233337","2016-01-27",27.5269,0.328767,0.232588,0.178512,1.95137,0.898962,1.42517,0.362062,38.7465,1.4516,1.25746,-12.4114,-11.8612
"17233323","2016-02-17",19.3453,0.3125,0.206755,0.146886,1.41409,1.04991,1.232,0.705025,46.72,1.2028,1.22022,-5.413,-6.87164
"17233309","2016-03-08",20.5206,0.736842,0.75117,0.732632,1.73565,1.07768,1.40667,1.01674,70.5131,1.3352,1.47169,5.68969,2.2103
"17233295","2016-03-29",18.3254,0.105263,0.169567,0.21986,1.78665,1.48535,1.636,0.391582,53.7618,1.5536,1.60403,3.82686,4.59726
"17233281","2016-04-18",18.0431,0.25,0.37963,0.511764,1.78431,1.58736,1.68583,0.67348,54.7579,1.6544,1.67995,2.79394,3.10043
"17233267","2016-05-06",31.6687,0,0.235511,0.35339,2.03215,1.69051,1.86133,0.437556,50.4779,1.7904,1.83642,2.91745,3.88835
"17233253","2016-05-26",24.6077,0.137931,0.045977,0.0153257,2.00511,1.69322,1.84917,0.192737,44.9512,1.8348,1.7775,-0.847031,0.515953
"17233239","2016-06-16",21.3502,0,0.0151515,0.141414,1.82844,1.6119,1.72017,-0.178097,31.5328,1.734,1.68306,-2.272,-1.47774
"17233225","2016-07-07",13.475,0.324324,0.385886,0.469898,1.91119,1.57915,1.74517,0.554713,49.4533,1.708,1.73161,0.360531,0.0508763
"17233211","2016-07-27",11.624,0,0.0133333,0.0351235,1.86501,1.62532,1.74517,0.0612279,39.4124,1.7236,1.68256,-1.41553,-0.482096
"17233197","2016-08-16",20.7116,0.770833,0.729167,0.536265,1.91025,1.45975,1.685,1.05125,73.078,1.6744,1.71341,1.80208,-0.626617
"17233183","2016-09-06",34.8756,0.155556,0.103704,0.0841099,2.10292,1.64541,1.87417,0.556465,58.3114,1.7852,1.83562,1.97792,2.36046
"17233169","2016-09-26",29.5103,0.0571429,0.097479,0.207588,2.06875,1.77892,1.92383,0.348765,48.0168,1.8884,1.8917,1.00706,1.77455
"17233155","2016-10-14",29.5198,0.804878,0.743293,0.736653,2.151,1.80933,1.98017,0.870242,64.4252,1.9424,1.99496,2.62312,2.07643
"17233141","2016-11-03",28.1003,0.0277778,0.00925926,0.00308642,2.203,1.73533,1.96917,0.124025,33.1571,1.948,1.86329,-2.34387,-0.832317
"17233127","2016-11-23",18.8326,0.0588235,0.235294,0.210551,1.85345,1.74455,1.799,0.141878,38.888,1.8056,1.7739,-2.21482,-2.28531
"17233113","2016-12-14",16.2501,0.219512,0.300813,0.295393,1.88658,1.67042,1.7785,0.398998,45.0588,1.7492,1.73891,-1.37535,-1.59349
"17233099","2017-01-05",16.2407,0.692308,0.545987,0.370401,1.82626,1.61574,1.721,1.04941,60.8181,1.7084,1.71193,-0.228286,-1.29571
"17233085","2017-01-26",16.2471,0.25,0.135965,0.105077,1.83637,1.66863,1.7525,0.544709,52.2216,1.7172,1.72602,-0.0378997,-0.00328791
"17233071","2017-02-15",13.5393,0.458333,0.458333,0.382576,1.79092,1.64941,1.72017,0.710815,52.1874,1.7056,1.69625,-0.312516,-0.636135
"17233057","2017-03-08",15.8163,0,-2.41474e-15,0.00925926,1.80917,1.55783,1.6835,0.0484244,34.8485,1.6648,1.62762,-2.01781,-1.27853
"17233043","2017-03-28",18.9918,0.15,0.102632,0.0692982,1.66689,1.45478,1.56083,0.276066,40.7378,1.5612,1.5157,-3.03997,-2.89808
"17233029","2017-04-18",13.6261,0,0.276316,0.520143,1.64089,1.47111,1.556,0.26834,40.3409,1.5332,1.55314,-0.362321,-0.475025
"17233015","2017-05-08",19.9221,0.0952381,0.031746,0.010582,1.6372,1.3718,1.5045,0.219298,31.8726,1.5008,1.44515,-2.85076,-2.12349
"17233001","2017-05-26",19.8826,0.241379,0.337547,0.420433,1.63855,1.36345,1.501,0.472132,47.7907,1.4748,1.50226,0.347974,0.130651
"17232987","2017-06-16",29.1205,0,-2.33147e-15,-9.83588e-16,1.63291,1.20742,1.42017,0.0765641,25.9512,1.4236,1.3296,-4.72515,-3.12106
"17232973","2017-07-07",16.9267,0.352941,0.469499,0.489833,1.36082,1.22718,1.294,0.495011,42.9443,1.2944,1.28938,-2.01276,-2.88679
"17232959","2017-07-27",10.1505,0.583333,0.611111,0.657407,1.37527,1.26773,1.3215,0.672035,52.3885,1.3,1.32291,0.404435,-0.153674
"17232945","2017-08-16",16.5822,0.208333,0.0972222,0.0513285,1.41896,1.16237,1.29067,0.237591,39.9052,1.2848,1.23298,-2.85073,-1.96226
"17232931","2017-09-06",22.6441,0.578947,0.596491,0.544204,1.31239,1.15761,1.235,0.898426,57.2513,1.2244,1.24307,0.0421991,-1.056
"17232917","2017-09-26",22.8519,0.740741,0.654321,0.50376,1.35433,1.10567,1.23,0.741295,57.0966,1.206,1.19646,-0.687633,-1.62803
"17232903","2017-10-16",30.3355,0.787879,0.823957,0.813981,1.68713,1.10187,1.3945,0.856821,75.9035,1.326,1.45876,6.58499,5.02141
"17232889","2017-11-03",27.2587,0,0.450794,0.485714,1.70699,1.45101,1.579,0.256501,45.3742,1.5204,1.55157,3.88642,4.48463
"17232875","2017-11-24",21.5576,0.1875,0.150412,0.100605,1.69976,1.35924,1.5295,0.335055,48.1018,1.508,1.47367,-0.38702,0.231431
"17232861","2017-12-14",26.2233,0.0434783,0.115942,0.101449,1.53053,1.30613,1.41833,0.0617953,37.9593,1.4148,1.36969,-2.94009,-2.14441
"17232847","2018-01-05",19.188,0.681818,0.590909,0.643098,1.4508,1.24987,1.35033,0.846727,54.8853,1.35,1.36592,-0.10475,-1.3574
"17232833","2018-01-26",14.2499,0.666667,0.574074,0.570547,1.49484,1.39416,1.4445,0.951888,62.11,1.4044,1.43955,1.61049,1.28006
"17232819","2018-02-15",24.4573,0.230769,0.237417,0.186135,1.53714,1.26019,1.39867,0.203916,41.1244,1.3916,1.33665,-2.38255,-1.48737
"17232805","2018-03-08",29.5601,0.4375,0.4375,0.347222,1.34047,1.2502,1.29533,0.367071,44.7605,1.298,1.27545,-2.23239,-2.3942
"17232791","2018-03-28",20.8203,0.166667,0.371345,0.558758,1.42575,1.22292,1.32433,0.49507,47.3464,1.3028,1.33504,0.929856,0.441058
"17232777","2018-04-18",18.798,0.666667,0.679739,0.56427,1.43997,1.24403,1.342,0.864072,64.1099,1.324,1.32538,0.678747,-0.0799315
"17232763","2018-05-08",54.7061,0.784615,0.799833,0.818577,2.03678,1.17822,1.6075,0.906691,90.2018,1.5156,1.7053,9.09281,7.14449
"17232749","2018-05-29",49.4621,0.330189,0.377358,0.399371,2.44903,1.66563,2.05733,0.673602,61.4272,1.918,2.06257,8.64485,8.98433
"17232735","2018-06-18",33.3117,0,0.219163,0.3635,2.53685,2.18282,2.35983,0.274505,52.9848,2.2296,2.2799,4.66167,6.49961
"17232721","2018-07-09",38.8898,0.660194,0.720065,0.705937,3.00069,2.04397,2.52233,1.06896,76.5963,2.4484,2.6197,7.34182,5.84371
"17232707","2018-07-27",40.5332,0,0.211331,0.324157,4.00779,2.61321,3.3105,0.430326,52.794,3.0728,3.26886,6.74595,9.00734
"17232693","2018-08-16",18.7052,0.0746269,0.0248756,0.0252001,3.46928,2.92839,3.19883,0.0522765,41.0284,3.2244,3.05076,-0.595311,1.39087
"17232679","2018-09-06",20.3102,0.203704,0.393214,0.511589,3.60478,2.93256,3.26867,0.452397,48.4522,3.188,3.25731,1.51456,2.02034
"17232665","2018-09-26",24.6648,0.246377,0.275362,0.217391,3.66905,3.14229,3.40567,0.425963,50.9595,3.3564,3.34645,0.994687,1.50306
"17232651","2018-10-16",16.9999,0.0172414,0.0396633,0.0433323,3.5514,3.00727,3.27933,0.0724092,38.3635,3.2772,3.14787,-2.32376,-1.17284
"17232637","2018-11-05",36.5455,0.252252,0.24709,0.231309,3.44567,1.91499,2.68033,0.277659,35.6037,2.742,2.44187,-9.39837,-8.695
"17232623","2018-11-26",29.0323,0.195652,0.173913,0.176329,2.43552,2.04582,2.24067,0.301558,41.3587,2.198,2.17265,-6.70426,-7.82249
"17232609","2018-12-17",29.4936,0,0.0232558,0.063876,2.32313,1.74354,2.03333,0.0629122,34.036,2.0088,1.91467,-7.1511,-6.64244
"17232595","2019-01-08",26.7968,0.769231,0.752486,0.708446,2.04662,1.48038,1.7635,0.947099,58.5257,1.7888,1.78283,-2.57722,-5.94931
"17232581","2019-01-29",17.9222,0,0.0360624,0.0357375,2.08508,1.68558,1.88533,0.0861467,36.4414,1.7892,1.79897,-1.91709,-1.13194
"17232567","2019-02-19",16.6337,0.73913,0.767429,0.751874,2.05811,1.67689,1.8675,1.10988,67.1672,1.8476,1.90031,2.04262,0.471323
"17232553","2019-03-11",17.8411,0.291667,0.166667,0.178063,2.13716,1.87984,2.0085,0.713095,58.9699,1.9516,1.98353,1.81858,1.91383
"17232539","2019-03-29",24.1929,0.297872,0.184397,0.0969267,2.23635,1.78465,2.0105,0.233235,43.8666,1.9768,1.9152,-1.76977,-0.0853204
"17232525","2019-04-18",16.0304,0.4,0.35,0.375253,1.95691,1.75576,1.85633,0.518229,47.2722,1.8796,1.84869,-1.35018,-1.62678
"17232511","2019-05-09",14.5191,0,0.0454545,0.0611672,1.95854,1.80013,1.87933,0.0202455,41.0575,1.8508,1.84526,-0.93147,-0.570855
"17232497","2019-05-30",37.4522,0.0294118,0.0286169,0.0188129,1.96382,1.46318,1.7135,0.106836,21.4925,1.734,1.61566,-5.57751,-4.10523
"17232483","2019-06-19",49.9137,0.0526316,0.0701754,0.0643275,1.5989,1.38177,1.49033,0.176075,30.86,1.5168,1.45204,-5.45456,-5.43405
"17232469","2019-07-10",41.405,0.307692,0.102564,0.042735,1.45397,1.34569,1.39983,0.563109,40.8328,1.4028,1.37661,-3.52015,-4.05507
"17232455","2019-07-30",22.8206,0,0.0892857,0.247024,1.49758,1.33576,1.41667,0.417605,39.546,1.3972,1.40151,-1.11507,-1.02972
"17232441","2019-08-19",13.2439,0.190476,0.179434,0.224063,1.51253,1.36847,1.4405,0.519669,50.0504,1.4196,1.41585,-0.233598,-0.259445
"17232427","2019-09-09",16.0475,0.666667,0.372222,0.235185,1.49461,1.28205,1.38833,0.68034,55.2853,1.3756,1.35337,-1.35024,-1.6549
"17232413","2019-09-27",12.0981,0,0.0133333,0.0847619,1.52169,1.28764,1.40467,0.195225,41.0235,1.3712,1.37908,-0.580514,0.0576524
"17232399","2019-10-17",13.3904,0,0.113636,0.154153,1.41528,1.22172,1.3185,0.18055,37.9849,1.3288,1.28527,-2.37476,-2.18781
"17232385","2019-11-06",14.4938,0.428571,0.392157,0.233427,1.315,1.15267,1.23383,0.476386,44.2041,1.2316,1.20539,-2.7126,-3.0624
"17232371","2019-11-26",19.2011,0.25,0.190546,0.181124,1.25016,1.09917,1.17467,0.292482,40.9557,1.1684,1.14546,-2.83449,-2.77966
"17232357","2019-12-17",21.5606,0.68,0.711884,0.694582,1.26165,1.06501,1.16333,1.00855,60.8045,1.15,1.18129,0.977364,-0.565883
"17232343","2020-01-08",33.9196,0.272727,0.40404,0.472668,1.55436,1.15364,1.354,0.523291,52.2328,1.2916,1.35778,3.93205,4.34507
"17232329","2020-01-29",23.5135,0.125,0.0694444,0.0462963,1.47348,1.22552,1.3495,0.0718266,42.0064,1.3452,1.28666,-1.16159,0.415702
"17232315","2020-02-19",12.3536,0,-3.29366e-15,0.0240385,1.32142,1.18358,1.2525,0.167509,38.4962,1.2536,1.2224,-2.08268,-1.73056
"17232301","2020-03-10",30.8382,0.0666667,0.0222222,0.0817664,1.40635,0.80398,1.10517,-0.122815,18.4288,1.1128,0.982379,-10.4515,-6.18102
"17232287","2020-03-30",52.5938,0.0638298,0.106244,0.113417,1.11127,0.0624015,0.586833,0.293268,22.8848,0.6548,0.461059,-29.9771,-27.9151
"17232273","2020-04-20",35.4877,0.488664,0.423058,0.428743,0.46939,0.338177,0.403783,0.584468,39.4091,0.375728,0.402412,-14.9804,-19.18
"17232259","2020-05-08",20.9268,0.448276,0.482759,0.517241,0.616566,0.341354,0.47896,0.661233,52.641,0.4436,0.490478,2.37327,-1.59521
"17232245","2020-05-29",10.3549,0.416667,0.472222,0.474198,0.58848,0.456567,0.522523,0.405064,50.9948,0.49746,0.500558,1.75051,1.31343
"17232231","2020-06-18",13.3129,0.232308,0.23141,0.247949,0.667843,0.46491,0.566377,0.488617,51.7889,0.532988,0.554558,3.24138,3.92805
"17232217","2020-07-09",15.6106,0.264601,0.308786,0.336173,0.625392,0.529075,0.577233,0.702457,54.7402,0.567008,0.567722,2.4858,1.99685
"17232203","2020-07-29",16.6599,0.156477,0.137133,0.128715,0.62713,0.560786,0.593958,0.340352,51.799,0.570852,0.574657,0.98014,1.37417
"17232189","2020-08-18",19.3583,0.375,0.316667,0.2825,0.612629,0.565245,0.588937,0.663135,55.9029,0.576352,0.579975,0.81095,0.721932
"17232175","2020-09-08",18.3664,0,-3.33067e-15,0.0271465,0.617588,0.487558,0.552573,-0.140417,21.3926,0.54855,0.520737,-3.83581,-2.35782
"17232161","2020-09-28",34.8243,0.0283333,0.0508878,0.0356382,0.555807,0.3533,0.454553,0.184193,22.9603,0.46057,0.418231,-8.95465,-7.95042
"17232147","2020-10-16",37.0687,0.3,0.223333,0.1995,0.464716,0.360681,0.412698,0.82651,55.5865,0.406116,0.414984,-2.12375,-4.35061
"17232133","2020-11-05",42.1137,0.121359,0.13572,0.0886597,0.476022,0.368732,0.422377,0.322506,43.8849,0.405328,0.395504,-2.85902,-2.76866
"17232119","2020-11-25",47.2128,0.785714,0.738398,0.76031,0.496696,0.35932,0.428008,1.09684,73.3738,0.41382,0.441812,3.93248,1.49376
"17232105","2020-12-16",69.708,0.767857,0.767039,0.777617,1.08934,0.263134,0.676235,0.81925,84.7197,0.600724,0.767215,20.2279,16.5484
"17232091","2021-01-07",52.8177,0.556468,0.477519,0.412404,1.00442,0.852369,0.928397,0.804297,65.3006,0.846036,0.88293,9.31128,11.4185
"17232077","2021-01-28",37.9114,0.323701,0.186966,0.267128,1.22887,0.870815,1.04984,0.677324,56.4581,0.990692,1.02582,5.74126,8.18882
"17232063","2021-02-18",41.572,0.767442,0.725065,0.737451,1.45697,0.940013,1.19849,0.825322,70.5676,1.151948,1.24077,8.60694,8.02228
"17232049","2021-03-10",28.0205,0.501713,0.563999,0.487872,1.5638,1.28929,1.42655,0.816158,61.0059,1.350356,1.41179,6.57973,7.08485
"17232035","2021-03-30",22.6721,0.125,0.201389,0.185007,1.78092,1.40082,1.59087,0.366175,51.9313,1.524096,1.54619,3.66984,5.30765
"17232021","2021-04-20",14.0556,0.117308,0.23141,0.290812,1.63792,1.42275,1.53033,0.267618,47.1919,1.52562,1.48555,-0.0586736,0.521576
"17232007","2021-05-10",11.8776,0.24,0.373333,0.477593,1.64259,1.44177,1.54218,0.45593,48.1165,1.49982,1.5318,1.06266,1.11974
"17231993","2021-05-28",13.9281,0.613636,0.598485,0.618687,1.82947,1.43939,1.63443,0.702276,57.6601,1.592116,1.64876,3.28812,2.7641
"17231979","2021-06-18",17.5344,0,0.27381,0.410522,1.95023,1.68177,1.816,0.37833,48.3499,1.750596,1.7848,2.81278,3.78248